Folder: scientific_computations/labs/ssp/XRD

File: unknown_0004.dat
# == pyFAI calibration ==
# Distance Sample to Detector: 0.158963 m
# PONI: 1.062e-01, 8.212e-02 m
# Rotations: -0.004467 -0.004617 0.000000 rad
#
# == Fit2d calibration ==
# Distance Sample-beamCenter: 158.967 mm
# Center: x=481.577, y=613.006 pix
# Tilt: 0.368 deg  TiltPlanRot: -45.941 deg
#
# Detector Pilatus CdTe 300k	 PixelSize= 1.720e-04, 1.720e-04 m
#    Detector has a mask: True
#    Detector has a dark current: False
#    detector has a flat field: False
#
# Wavelength: 7.10511e-11 m
# Mask applied: from detector
# Dark current applied: False
# Flat field applied: False
# Polarization factor: None
# Normalization factor: 1.0
# --> /home/diffmin/imagedata/221007_group1/unknown/unknown_0004.dat
#       2th_deg             I
  7.107765e-02    1.041618e+06
  2.313541e-01    7.141177e+05
  3.916305e-01    3.424675e+04
  5.519070e-01    3.628118e+04
  7.121834e-01    1.145654e+04
  8.724598e-01    5.880030e+03
  1.032736e+00    3.964958e+03
  1.193013e+00    3.100606e+03
  1.353289e+00    2.051895e+03
  1.513566e+00    1.523230e+03
  1.673842e+00    1.085841e+03
  1.834118e+00    4.434468e+02
  1.994395e+00    2.927400e+02
  2.154671e+00    1.298000e+02
  2.314948e+00    7.368594e+01
  2.475224e+00    5.401451e+01
  2.635501e+00    4.931403e+01
  2.795777e+00    4.154561e+01
  2.956054e+00    3.457032e+01
  3.116330e+00    3.106223e+01
  3.276606e+00    2.834352e+01
  3.436883e+00    2.645677e+01
  3.597159e+00    2.495114e+01
  3.757436e+00    2.233060e+01
  3.917712e+00    2.170805e+01
  4.077989e+00    1.967701e+01
  4.238265e+00    1.973116e+01
  4.398542e+00    1.919055e+01
  4.558818e+00    1.847379e+01
  4.719094e+00    1.757042e+01
  4.879371e+00    1.865907e+01
  5.039647e+00    1.848871e+01
  5.199924e+00    1.901285e+01
  5.360200e+00    1.750881e+01
  5.520477e+00    1.739327e+01
  5.680753e+00    1.699680e+01
  5.841029e+00    1.612539e+01
  6.001306e+00    1.570064e+01
  6.161582e+00    1.561564e+01
  6.321859e+00    1.564619e+01
  6.482135e+00    1.561666e+01
  6.642412e+00    1.531469e+01
  6.802688e+00    1.481850e+01
  6.962965e+00    1.535546e+01
  7.123241e+00    1.461531e+01
  7.283517e+00    1.449810e+01
  7.443794e+00    1.456900e+01
  7.604070e+00    1.486165e+01
  7.764347e+00    1.435082e+01
  7.924623e+00    1.367864e+01
  8.084900e+00    1.348662e+01
  8.245176e+00    1.343045e+01
  8.405452e+00    1.322719e+01
  8.565729e+00    1.354833e+01
  8.726005e+00    1.289985e+01
  8.886282e+00    1.266971e+01
  9.046558e+00    1.276002e+01
  9.206835e+00    1.238720e+01
  9.367111e+00    1.204252e+01
  9.527388e+00    1.218871e+01
  9.687664e+00    1.196532e+01
  9.847940e+00    1.212124e+01
  1.000822e+01    1.165740e+01
  1.016849e+01    1.168639e+01
  1.032877e+01    1.122163e+01
  1.048905e+01    1.108133e+01
  1.064932e+01    1.063816e+01
  1.080960e+01    1.055551e+01
  1.096988e+01    1.060541e+01
  1.113015e+01    1.028689e+01
  1.129043e+01    1.004666e+01
  1.145070e+01    1.032938e+01
  1.161098e+01    9.940905e+00
  1.177126e+01    1.023575e+01
  1.193153e+01    9.948832e+00
  1.209181e+01    9.590896e+00
  1.225209e+01    9.305617e+00
  1.241236e+01    9.281964e+00
  1.257264e+01    8.882618e+00
  1.273292e+01    8.951937e+00
  1.289319e+01    8.465646e+00
  1.305347e+01    8.110087e+00
  1.321375e+01    7.910205e+00
  1.337402e+01    7.844620e+00
  1.353430e+01    7.814626e+00
  1.369457e+01    7.440178e+00
  1.385485e+01    7.317446e+00
  1.401513e+01    7.254400e+00
  1.417540e+01    7.390322e+00
  1.433568e+01    6.831276e+00
  1.449596e+01    6.642238e+00
  1.465623e+01    6.960920e+00
  1.481651e+01    6.539490e+00
  1.497679e+01    6.234364e+00
  1.513706e+01    6.379575e+00
  1.529734e+01    6.464311e+00
  1.545762e+01    6.417609e+00
  1.561789e+01    6.097050e+00
  1.577817e+01    5.927651e+00
  1.593845e+01    6.069815e+00
  1.609872e+01    6.129246e+00
  1.625900e+01    6.175425e+00
  1.641927e+01    5.913502e+00
  1.657955e+01    5.753296e+00
  1.673983e+01    5.806686e+00
  1.690010e+01    5.575706e+00
  1.706038e+01    5.803662e+00
  1.722066e+01    5.755926e+00
  1.738093e+01    5.751074e+00
  1.754121e+01    5.847596e+00
  1.770149e+01    5.591398e+00
  1.786176e+01    5.566068e+00
  1.802204e+01    5.214032e+00
  1.818232e+01    5.524940e+00
  1.834259e+01    5.202446e+00
  1.850287e+01    5.330967e+00
  1.866314e+01    5.320128e+00
  1.882342e+01    5.063673e+00
  1.898370e+01    5.329371e+00
  1.914397e+01    5.220998e+00
  1.930425e+01    5.286080e+00
  1.946453e+01    5.247295e+00
  1.962480e+01    5.549819e+00
  1.978508e+01    5.311014e+00
  1.994536e+01    5.781210e+00
  2.010563e+01    7.756677e+00
  2.026591e+01    1.515177e+01
  2.042619e+01    1.493837e+01
  2.058646e+01    8.156295e+00
  2.074674e+01    5.362953e+00
  2.090701e+01    5.110081e+00
  2.106729e+01    4.797116e+00
  2.122757e+01    4.919557e+00
  2.138784e+01    4.688243e+00
  2.154812e+01    4.701739e+00
  2.170840e+01    4.679764e+00
  2.186867e+01    4.725353e+00
  2.202895e+01    4.438316e+00
  2.218923e+01    4.656575e+00
  2.234950e+01    4.516468e+00
  2.250978e+01    4.667110e+00
  2.267006e+01    4.436546e+00
  2.283033e+01    4.392290e+00
  2.299061e+01    4.553907e+00
  2.315088e+01    4.241288e+00
  2.331116e+01    4.330419e+00
  2.347144e+01    4.286517e+00
  2.363171e+01    4.330047e+00
  2.379199e+01    4.082139e+00
  2.395227e+01    4.401200e+00
  2.411254e+01    4.223126e+00
  2.427282e+01    4.159707e+00
  2.443310e+01    4.156513e+00
  2.459337e+01    4.194759e+00
  2.475365e+01    4.161268e+00
  2.491393e+01    4.107641e+00
  2.507420e+01    4.199251e+00
  2.523448e+01    4.189956e+00
  2.539475e+01    4.106747e+00
  2.555503e+01    4.146061e+00
  2.571531e+01    4.001655e+00
  2.587558e+01    4.045629e+00
  2.603586e+01    3.952269e+00
  2.619614e+01    4.015640e+00
  2.635641e+01    4.009946e+00
  2.651669e+01    3.953352e+00
  2.667697e+01    4.021745e+00
  2.683724e+01    3.874735e+00
  2.699752e+01    3.858500e+00
  2.715780e+01    3.995626e+00
  2.731807e+01    3.915636e+00
  2.747835e+01    3.906969e+00
  2.763863e+01    3.947762e+00
  2.779890e+01    4.080355e+00
  2.795918e+01    3.936999e+00
  2.811945e+01    3.872009e+00
  2.827973e+01    3.817173e+00
  2.844001e+01    4.022526e+00
  2.860028e+01    3.984722e+00
  2.876056e+01    4.917904e+00
  2.892084e+01    5.414433e+00
  2.908111e+01    4.671950e+00
  2.924139e+01    3.897827e+00
  2.940167e+01    3.919362e+00
  2.956194e+01    3.756942e+00
  2.972222e+01    3.757868e+00
  2.988250e+01    3.686867e+00
  3.004277e+01    3.609271e+00
  3.020305e+01    3.658937e+00
  3.036332e+01    3.722176e+00
  3.052360e+01    3.713396e+00
  3.068388e+01    3.734887e+00
  3.084415e+01    3.649604e+00
  3.100443e+01    3.614954e+00
  3.116471e+01    3.704154e+00
  3.132498e+01    3.604782e+00
  3.148526e+01    3.578367e+00
  3.164554e+01    3.642784e+00
  3.180581e+01    3.572790e+00
  3.196609e+01    3.572741e+00
  3.212637e+01    3.549521e+00
  3.228664e+01    3.450774e+00
  3.244692e+01    3.545518e+00
  3.260719e+01    3.453621e+00
  3.276747e+01    3.470951e+00
  3.292775e+01    3.526139e+00
  3.308802e+01    3.417283e+00
  3.324830e+01    3.419088e+00
  3.340858e+01    3.457084e+00
  3.356885e+01    3.438549e+00
  3.372913e+01    3.448130e+00
  3.388941e+01    3.440457e+00
  3.404968e+01    3.203155e+00
  3.420996e+01    3.339641e+00
  3.437024e+01    3.436143e+00
  3.453051e+01    3.091364e+00
  3.469079e+01    3.152313e+00
  3.485106e+01    3.216917e+00
  3.501134e+01    3.341292e+00
  3.517162e+01    3.459023e+00
  3.533189e+01    3.923620e+00
  3.549217e+01    5.454581e+00
  3.565245e+01    5.863768e+00
  3.581272e+01    4.038034e+00
  3.597300e+01    3.325766e+00
  3.613328e+01    3.101862e+00
  3.629355e+01    2.975969e+00
  3.645383e+01    3.123076e+00
  3.661411e+01    2.991189e+00
  3.677438e+01    2.913934e+00
  3.693466e+01    2.998811e+00
  3.709494e+01    2.930777e+00
  3.725521e+01    2.743516e+00
  3.741549e+01    2.560286e+00
  3.757576e+01    2.553029e+00
  3.773604e+01    3.152581e+00
  3.789632e+01    2.889176e+00
  3.805659e+01    2.789861e+00
  3.821687e+01    2.722275e+00
  3.837715e+01    2.757850e+00
  3.853742e+01    2.774213e+00
  3.869770e+01    2.690307e+00
  3.885798e+01    2.971413e+00
  3.901825e+01    2.608824e+00
  3.917853e+01    2.500966e+00
  3.933881e+01    2.345072e+00
  3.949908e+01    2.880271e+00
  3.965936e+01    3.105365e+00
  3.981963e+01    2.267814e+00
  3.997991e+01    2.350541e+00
  4.006005e+01    2.482181e+00

File: unknown_0006.dat
# == pyFAI calibration ==
# Distance Sample to Detector: 0.158963 m
# PONI: 1.062e-01, 8.212e-02 m
# Rotations: -0.004467 -0.004617 0.000000 rad
#
# == Fit2d calibration ==
# Distance Sample-beamCenter: 158.967 mm
# Center: x=481.577, y=613.006 pix
# Tilt: 0.368 deg  TiltPlanRot: -45.941 deg
#
# Detector Pilatus CdTe 300k	 PixelSize= 1.720e-04, 1.720e-04 m
#    Detector has a mask: True
#    Detector has a dark current: False
#    detector has a flat field: False
#
# Wavelength: 7.10511e-11 m
# Mask applied: from detector
# Dark current applied: False
# Flat field applied: False
# Polarization factor: None
# Normalization factor: 1.0
# --> /home/diffmin/imagedata/221007_group1/unknown/unknown_0006.dat
#       2th_deg             I
  7.107765e-02    1.041618e+06
  2.313541e-01    7.002570e+05
  3.916305e-01    3.437752e+04
  5.519070e-01    3.423083e+04
  7.121834e-01    9.300216e+03
  8.724598e-01    3.381346e+03
  1.032736e+00    2.759125e+03
  1.193013e+00    2.365569e+03
  1.353289e+00    1.706833e+03
  1.513566e+00    1.262524e+03
  1.673842e+00    9.332050e+02
  1.834118e+00    4.112045e+02
  1.994395e+00    2.768034e+02
  2.154671e+00    1.181378e+02
  2.314948e+00    6.030201e+01
  2.475224e+00    4.190703e+01
  2.635501e+00    3.821932e+01
  2.795777e+00    3.285840e+01
  2.956054e+00    2.801813e+01
  3.116330e+00    2.612752e+01
  3.276606e+00    2.337496e+01
  3.436883e+00    2.184552e+01
  3.597159e+00    2.004262e+01
  3.757436e+00    1.914469e+01
  3.917712e+00    1.733901e+01
  4.077989e+00    1.688245e+01
  4.238265e+00    1.610019e+01
  4.398542e+00    1.572021e+01
  4.558818e+00    1.494266e+01
  4.719094e+00    1.452031e+01
  4.879371e+00    1.447053e+01
  5.039647e+00    1.426626e+01
  5.199924e+00    1.433998e+01
  5.360200e+00    1.406440e+01
  5.520477e+00    1.368332e+01
  5.680753e+00    1.322007e+01
  5.841029e+00    1.264835e+01
  6.001306e+00    1.275891e+01
  6.161582e+00    1.250840e+01
  6.321859e+00    1.217105e+01
  6.482135e+00    1.224326e+01
  6.642412e+00    1.211480e+01
  6.802688e+00    1.204457e+01
  6.962965e+00    1.180050e+01
  7.123241e+00    1.185847e+01
  7.283517e+00    1.158715e+01
  7.443794e+00    1.154586e+01
  7.604070e+00    1.128483e+01
  7.764347e+00    1.139268e+01
  7.924623e+00    1.103107e+01
  8.084900e+00    1.057200e+01
  8.245176e+00    1.058018e+01
  8.405452e+00    1.065588e+01
  8.565729e+00    1.019258e+01
  8.726005e+00    1.011398e+01
  8.886282e+00    9.863282e+00
  9.046558e+00    9.989993e+00
  9.206835e+00    1.014577e+01
  9.367111e+00    9.699142e+00
  9.527388e+00    9.192816e+00
  9.687664e+00    9.274485e+00
  9.847940e+00    9.316309e+00
  1.000822e+01    9.410085e+00
  1.016849e+01    9.385849e+00
  1.032877e+01    9.415710e+00
  1.048905e+01    9.046823e+00
  1.064932e+01    8.836709e+00
  1.080960e+01    8.568099e+00
  1.096988e+01    8.554058e+00
  1.113015e+01    8.320090e+00
  1.129043e+01    8.167422e+00
  1.145070e+01    8.092305e+00
  1.161098e+01    8.027205e+00
  1.177126e+01    7.834622e+00
  1.193153e+01    7.944489e+00
  1.209181e+01    7.899260e+00
  1.225209e+01    7.886003e+00
  1.241236e+01    7.698190e+00
  1.257264e+01    7.577664e+00
  1.273292e+01    7.419791e+00
  1.289319e+01    7.191359e+00
  1.305347e+01    6.906994e+00
  1.321375e+01    6.738188e+00
  1.337402e+01    6.732135e+00
  1.353430e+01    6.513282e+00
  1.369457e+01    6.282836e+00
  1.385485e+01    6.353488e+00
  1.401513e+01    6.134185e+00
  1.417540e+01    5.988498e+00
  1.433568e+01    5.729582e+00
  1.449596e+01    5.943124e+00
  1.465623e+01    5.870079e+00
  1.481651e+01    5.707298e+00
  1.497679e+01    5.442232e+00
  1.513706e+01    5.550191e+00
  1.529734e+01    5.358637e+00
  1.545762e+01    5.441998e+00
  1.561789e+01    5.431202e+00
  1.577817e+01    5.314919e+00
  1.593845e+01    5.474073e+00
  1.609872e+01    5.167922e+00
  1.625900e+01    5.323761e+00
  1.641927e+01    5.138159e+00
  1.657955e+01    5.390080e+00
  1.673983e+01    5.935736e+00
  1.690010e+01    6.198076e+00
  1.706038e+01    6.773545e+00
  1.722066e+01    7.574405e+00
  1.738093e+01    1.151012e+01
  1.754121e+01    3.172467e+01
  1.770149e+01    4.013587e+01
  1.786176e+01    1.585274e+01
  1.802204e+01    8.329285e+00
  1.818232e+01    6.564475e+00
  1.834259e+01    6.044052e+00
  1.850287e+01    5.641978e+00
  1.866314e+01    5.594286e+00
  1.882342e+01    5.383682e+00
  1.898370e+01    5.128254e+00
  1.914397e+01    5.086607e+00
  1.930425e+01    5.356436e+00
  1.946453e+01    5.457673e+00
  1.962480e+01    5.561424e+00
  1.978508e+01    5.607614e+00
  1.994536e+01    6.499688e+00
  2.010563e+01    7.870004e+00
  2.026591e+01    1.472620e+01
  2.042619e+01    1.835747e+01
  2.058646e+01    1.052106e+01
  2.074674e+01    6.360301e+00
  2.090701e+01    5.273100e+00
  2.106729e+01    4.772232e+00
  2.122757e+01    4.593648e+00
  2.138784e+01    4.477345e+00
  2.154812e+01    4.128232e+00
  2.170840e+01    4.255071e+00
  2.186867e+01    4.261389e+00
  2.202895e+01    4.136590e+00
  2.218923e+01    3.994331e+00
  2.234950e+01    3.762952e+00
  2.250978e+01    3.956113e+00
  2.267006e+01    3.773880e+00
  2.283033e+01    3.807698e+00
  2.299061e+01    3.761812e+00
  2.315088e+01    3.789559e+00
  2.331116e+01    3.752451e+00
  2.347144e+01    3.764124e+00
  2.363171e+01    3.660984e+00
  2.379199e+01    3.529840e+00
  2.395227e+01    3.692111e+00
  2.411254e+01    3.575312e+00
  2.427282e+01    3.679904e+00
  2.443310e+01    3.483514e+00
  2.459337e+01    3.544804e+00
  2.475365e+01    3.414951e+00
  2.491393e+01    3.335695e+00
  2.507420e+01    3.478012e+00
  2.523448e+01    3.395916e+00
  2.539475e+01    3.318301e+00
  2.555503e+01    3.457048e+00
  2.571531e+01    3.438283e+00
  2.587558e+01    3.425376e+00
  2.603586e+01    3.449083e+00
  2.619614e+01    3.501808e+00
  2.635641e+01    3.283617e+00
  2.651669e+01    3.331810e+00
  2.667697e+01    3.335080e+00
  2.683724e+01    3.349401e+00
  2.699752e+01    3.277690e+00
  2.715780e+01    3.383965e+00
  2.731807e+01    3.322136e+00
  2.747835e+01    3.377326e+00
  2.763863e+01    3.331610e+00
  2.779890e+01    3.270265e+00
  2.795918e+01    3.484481e+00
  2.811945e+01    3.479126e+00
  2.827973e+01    3.588632e+00
  2.844001e+01    3.924857e+00
  2.860028e+01    4.404292e+00
  2.876056e+01    7.133765e+00
  2.892084e+01    1.259897e+01
  2.908111e+01    9.566931e+00
  2.924139e+01    5.416722e+00
  2.940167e+01    4.039809e+00
  2.956194e+01    3.603804e+00
  2.972222e+01    3.417124e+00
  2.988250e+01    3.515786e+00
  3.004277e+01    3.180900e+00
  3.020305e+01    3.343744e+00
  3.036332e+01    3.253234e+00
  3.052360e+01    3.131217e+00
  3.068388e+01    3.095964e+00
  3.084415e+01    3.104497e+00
  3.100443e+01    3.151200e+00
  3.116471e+01    3.046116e+00
  3.132498e+01    3.131110e+00
  3.148526e+01    3.171196e+00
  3.164554e+01    3.050785e+00
  3.180581e+01    3.073098e+00
  3.196609e+01    3.040441e+00
  3.212637e+01    3.185313e+00
  3.228664e+01    3.121449e+00
  3.244692e+01    3.058929e+00
  3.260719e+01    3.084006e+00
  3.276747e+01    3.153698e+00
  3.292775e+01    3.200397e+00
  3.308802e+01    4.123326e+00
  3.324830e+01    3.263851e+00
  3.340858e+01    3.401258e+00
  3.356885e+01    3.852556e+00
  3.372913e+01    5.441973e+00
  3.388941e+01    1.044011e+01
  3.404968e+01    1.176279e+01
  3.420996e+01    8.627356e+00
  3.437024e+01    4.771230e+00
  3.453051e+01    3.603433e+00
  3.469079e+01    3.420068e+00
  3.485106e+01    3.270237e+00
  3.501134e+01    3.303689e+00
  3.517162e+01    3.174733e+00
  3.533189e+01    3.731800e+00
  3.549217e+01    5.530931e+00
  3.565245e+01    4.847750e+00
  3.581272e+01    3.884499e+00
  3.597300e+01    3.141817e+00
  3.613328e+01    3.012767e+00
  3.629355e+01    2.711617e+00
  3.645383e+01    2.596295e+00
  3.661411e+01    2.691040e+00
  3.677438e+01    2.711586e+00
  3.693466e+01    2.591530e+00
  3.709494e+01    2.469486e+00
  3.725521e+01    2.476596e+00
  3.741549e+01    2.355124e+00
  3.757576e+01    2.342476e+00
  3.773604e+01    2.434818e+00
  3.789632e+01    2.449613e+00
  3.805659e+01    2.723837e+00
  3.821687e+01    2.768238e+00
  3.837715e+01    2.532508e+00
  3.853742e+01    2.390332e+00
  3.869770e+01    2.035914e+00
  3.885798e+01    2.314794e+00
  3.901825e+01    2.341698e+00
  3.917853e+01    2.224849e+00
  3.933881e+01    2.479791e+00
  3.949908e+01    2.209359e+00
  3.965936e+01    2.045392e+00
  3.981963e+01    2.722140e+00
  3.997991e+01    2.227059e+00
  4.006005e+01    7.446293e-01